Time (s),ESC signal (µs),Servo 1 (µs),Servo 2 (µs),Servo 3 (µs),AccX (g),AccY (g),AccZ (g),Torque (N·m),Thrust (N),Voltage (V),Current (A),Motor Electrical Speed (rad/s),Motor Optical Speed (rad/s),Electrical Power (W),Mechanical Power (W),Motor Efficiency (%),Propeller Mech. Efficiency (N/W),Overall Efficiency (N/W),Vibration (g),App message,
0.2314499999999709,1000,,,,-0.06171875,0.99072265625,0.050390625,-0.0006488551014656372,-0.010446078975118829,16.388652992248534,-0.009652351504191758,0,0,0.15818817894739906,0,0,0,0,0.0625,,
0.22939975000003762,1000,,,,-0.0625,0.99072265625,0.05029296875,-0.0006468457485348764,-0.008706156311577515,16.388883113861084,-0.010375085261184722,0,0,0.17003899523576949,0,0,0,0,0.0625,,
0.7130995000000284,1000,,,,-0.0625,0.99140625,0.04912109375,-0.0006464720425824898,-0.008796460441862474,16.389891815185546,-0.010112537173554302,0,0,0.16574252427094704,0,0,0,0,0.0625,,
1.2010000000000205,1000,,,,-0.0625,0.989453125,0.0513671875,-0.0006417545246443316,-0.00990966162636027,16.39050350189209,-0.01293565534055233,0,0,0.21202238047685648,0,0,0,0,0.0625,,
1.6872492500000373,1000,,,,-0.0625,0.9880859375,0.0529296875,-0.0006501585803401241,-0.0092625811622555,16.3911283493042,-0.011454341802746059,0,0,0.19061526907593512,0,0,0,0,0.06201171875,,
2.1744000000000203,1000,,,,-0.0625,0.99033203125,0.05029296875,-0.0006647986193479068,-0.00977177208610479,16.392131042480468,-0.009698854465968907,0,0,0.15941645972987287,0,0,0,0,0.0625,,
2.6586000000000203,1000,,,,-0.0625,0.99150390625,0.049609375,-0.000667640889768407,-0.008687041036095041,16.392663955688477,-0.01203078493475914,0,0,0.19721649429611768,0,0,0,0,0.0625,,
3.144250000000024,1000,,,,-0.0625,0.99248046875,0.04833984375,-0.0006881970464587695,-0.008818252396655792,16.393211078643798,-0.00832895427942276,0,0,0.14140458350240706,0,0,0,0,0.0625,,
3.633799750000029,1200,,,,-0.0564453125,0.98369140625,0.043359375,0.0017437490801458678,-0.009900468990343234,16.390360164642335,0.1035010150074959,0,0,1.875791982971466,0.000139689248567379,0.0012438172415822862,1.084256587850641,0.00007607636802570742,0.06474609375,,
4.124700000000038,1250,,,,-0.03505859375,1.00048828125,0.0095703125,0.03664256984403312,0.28056249569958097,16.368451595306396,0.7313774166069927,125.55898638887999,488.83181690016,11.966759398367419,18.825117582820756,190.27586161724702,0.09618359187516129,0.0310570339456573,0.10693359375,,
4.614900000000032,1250,,,,-0.04345703125,0.983984375,0.01689453125,0.015739652662557592,0.7385845037615997,16.377226257324217,0.44793209036812176,254.25956543136,888.8612814585599,7.335868688122145,13.97435307805784,190.56719442815162,0.0533699636006806,0.10118902250194162,0.1263671875,,
5.106649250000046,1250,,,,-0.05087890625,0.9951171875,0.0193359375,0.014267466135588703,0.7751533505806472,16.377369785308836,0.44530709436163296,260.43803098344,917.7639338716799,7.29295642828834,13.093715978114219,179.78646401306372,0.059243651550314504,0.10647180809408706,0.16357421875,,
5.592299750000029,1250,,,,-0.04853515625,0.9966796875,0.0119140625,0.014121384003210873,0.7889354642035115,16.377219486236573,0.4344128017686306,261.17106926928,918.81113142288,7.114465502372477,12.976788246292866,182.98421615412605,0.06086828309047986,0.1112329567981075,0.17841796875,,
6.08070000000005,1250,,,,-0.04765625,1,0.01640625,0.014150040953750869,0.7941885960554442,16.377219104766844,0.4344825585745274,261.2757890244,916.40257705512,7.1156138985341695,12.967464608836735,182.40976395891659,0.06133160464032484,0.11172671370698935,0.192578125,,
6.5698500000000255,1250,,,,-0.04794921875,0.9984375,0.01533203125,0.01410617492109974,0.7816563294477544,16.377369117736816,0.43763022622093545,260.64747049368,914.09874244248,7.167234217741742,12.894832939347612,180.0799873545215,0.06068199032581153,0.10919745311900748,0.208984375,,
7.055249750000032,1250,,,,-0.04501953125,0.99521484375,0.014453125,0.014202530969596805,0.7836824945745673,16.37711181640625,0.4323332463763653,260.96162975903997,909.17691395184,7.080368692539875,12.913457153514154,182.61489041948352,0.06072760145850712,0.11079619736787928,0.2150390625,,
7.54374975000002,1250,,,,-0.04658203125,0.99833984375,0.0095703125,0.0140679105752916,0.7722717295609552,16.377658653259278,0.4314133604429661,261.17106926928,911.89962758496,7.06554312527885,12.827221101515192,181.91720161566383,0.06022474348479902,0.10953478049645723,0.21494140625,,
8.030600000000023,1250,,,,-0.0517578125,0.9943359375,0.019921875,0.01396079777460344,0.7647808126936647,16.377545738220213,0.4139781360886989,261.90410755512,921.11496603552,6.779946136687573,12.859452660235956,189.74888420065943,0.05951486110015725,0.11284514367099788,0.20498046875,,
8.517299750000026,1250,,,,-0.04560546875,0.999609375,0.0109375,0.013922223177192763,0.7666566511844342,16.37845516204834,0.44222966184839596,261.90410755512,921.11496603552,7.2430398412974295,12.823422499980245,177.06708292649742,0.05982232919098432,0.10586590655908748,0.201171875,,
9.006650000000018,1250,,,,-0.04619140625,0.993359375,0.01591796875,0.013926468666298389,0.7730177660480669,16.377597999572753,0.42462150504812585,262.00882731024,922.16216358672,6.954281541288147,12.841076898590373,184.81235716148637,0.060221748507401016,0.11125822006069486,0.20078125,,
9.500050000000021,1250,,,,-0.0509765625,0.99755859375,0.0146484375,0.014026890452869183,0.7750176240135721,16.378144550323487,0.44842473169788705,260.33331122832,919.2300104433599,7.344370148918114,12.890579005291096,175.77433711779048,0.0601513845991072,0.10565741375112234,0.20166015625,,
9.98825000000002,1250,,,,-0.0498046875,0.99716796875,0.01640625,0.014054285843927542,0.7765628790908706,16.37807970046997,0.453015448655933,261.48522853464,917.2403350960799,7.41952305632076,12.891063088877539,173.80665017265542,0.060284373971690106,0.10471682736966167,0.20107421875,,
10.477499750000026,1250,,,,-0.0451171875,1.00244140625,0.00908203125,0.014243810268148083,0.7730833852469297,16.377147579193114,0.4430928756855427,263.05602486144,921.63856481112,7.256588391680118,13.127544080831006,181.6040424480243,0.05901776724707171,0.10703542440318375,0.2099609375,,
10.969300000000027,1250,,,,-0.044921875,0.9951171875,0.01298828125,0.013942735548789751,0.7708052337445911,16.378226470947265,0.43361934622749676,262.63714584096,918.18281289216,7.101919713977392,12.80133987980796,180.59768767256156,0.0602389912155864,0.10876206295144498,0.2060546875,,
11.461649500000032,1250,,,,-0.04580078125,0.992578125,0.01669921875,0.014057187129987919,0.7731239409940636,16.37800168991089,0.437547392155975,262.74186559608,922.16216358672,7.166156170815144,12.962047735567904,181.3283703126291,0.05968340146194178,0.10814072856251374,0.20302734375,,
11.948849750000019,1250,,,,-0.0474609375,0.9970703125,0.0171875,0.013943979623868836,0.7672073171190189,16.378401947021484,0.43069401880726205,262.84658535119996,914.7270609732,7.054073225477028,12.754991746754635,181.07276925790933,0.06018269506992076,0.10894296581894425,0.20078125,,
12.438250000000021,1250,,,,-0.05107421875,1.00048828125,0.01044921875,0.01388221919110239,0.7621111630456591,16.37820167541504,0.42918993880972256,262.95130510632,921.2196857906399,7.0293557689113895,12.788792281766703,182.15959361388065,0.0596277262887552,0.10856094293299504,0.19521484375,,
12.93225000000002,1250,,,,-0.0462890625,0.9962890625,0.01376953125,0.013891574455775619,0.7639004826092098,16.379167079925537,0.4320551966689526,262.74186559608,925.1990364851999,7.076709713555507,12.85424647924873,181.84963348687873,0.059483510655912494,0.10813582670066363,0.19580078125,,
13.430650000000025,1250.2805779166667,,,,-0.0474609375,0.99111328125,0.0158203125,0.013815760354066736,0.7638345119272053,16.37873010635376,0.4344341178797184,262.42770633071996,915.35537950392,7.11548484182414,12.646545427455285,178.06925397048485,0.06043685334535658,0.10754963162393272,0.19775390625,,
13.92645000000004,1254.4026395833334,,,,-0.043359375,0.99033203125,0.0115234375,0.014788242057251027,0.7745871923506571,16.378148078918457,0.4530265857838093,263.8937829024,926.1415142812799,7.419736142278351,13.696984882469504,185.01680283162196,0.05668116912058215,0.10477826205912115,0.20048828125,,
14.410649500000028,1259.6454231250002,,,,-0.04521484375,1.00029296875,0.0087890625,0.015891312845011198,0.8239365069498544,16.37714900970459,0.49025464406237,270.59584723008,943.94387265168,8.028975778594184,15.005138283001566,187.00122471591055,0.054995245153497956,0.10272697698172124,0.21455078125,,
14.901050000000021,1264.9608089583335,,,,-0.02734375,0.91103515625,0.062109375,0.01732560414874564,0.8705799421002736,16.375486850738525,0.5320293312333526,278.76398812944,985.20345616896,8.712212457608558,17.081803786167047,196.47798028454008,0.051156051679751985,0.10025266721434849,0.3046875,,
15.389200000000026,1270.2512727083335,,,,-0.05009765625,0.99111328125,0.0181640625,0.018239070015126153,0.9427497052401049,16.37453670501709,0.5612656568549577,289.75956241704,1014.7344271128,9.190413467897653,18.50203736041866,202.33654722926153,0.05124265573316882,0.10312989587476605,0.49091796875,,
15.867099750000037,1275.4312283333334,,,,-0.058203125,1.01455078125,0.00908203125,0.018580717955274568,0.9804822316302493,16.373901176452637,0.590933102872223,294.89083041792,1033.4792632792798,9.675841438125945,19.21376853835443,199.36903621676078,0.05124603365162135,0.10180946753854056,0.53115234375,,
16.351650000000028,1280.6750870833334,,,,-0.0521484375,0.99306640625,0.01943359375,0.020280499206324454,1.0380010959321124,16.372261714935302,0.6328904097341004,302.84953180703997,1069.50285904056,10.361793522690002,21.697073861045368,209.57425877724404,0.04800138464750975,0.1004247513142726,0.54599609375,,
16.837850000000024,1285.9439004166666,,,,-0.05419921875,0.99775390625,0.0154296875,0.021368173925591004,1.1206455974417042,16.36999683380127,0.667471188809723,312.69318878831996,1094.8450397796,10.926486395270185,23.397875793382603,214.24556738314237,0.04794602973781289,0.10262000417912774,0.43720703125,,
17.318299750000016,1291.1514702083336,,,,-0.0482421875,0.996875,0.0185546875,0.02220396849529697,1.1748729573061745,16.369017696380617,0.703896096851677,319.29053336088,1125.63264778488,11.522076771488445,24.99709432788368,217.18777371614496,0.04704858569358404,0.1020654379847848,0.30986328125,,
17.799249500000027,1296.3606866666669,,,,-0.05087890625,1.00107421875,0.0142578125,0.022808897115082584,1.2268172989786503,16.36784973144531,0.7148737048171464,324.94540013735997,1139.8745344812,11.7008572413838,26.007994694993336,223.2167069293917,0.04748613080358002,0.10544565655754613,0.3078125,,
18.284899750000033,1301.6170200000001,,,,-0.04677734375,0.99931640625,0.01748046875,0.022143262453654434,1.2174792030152315,16.367678451538087,0.6934242074750367,323.79348283103997,1137.9895788890399,11.349674120726192,25.221431748343544,222.32131366235967,0.04879405431608947,0.10769002113465763,0.3146484375,,
18.773500000000034,1306.9112645833336,,,,-0.0501953125,1.002734375,0.014453125,0.024510078345354493,1.2831795133722528,16.3659387588501,0.7596255545876923,332.48522250599996,1164.4836769344,12.431976110162521,28.54150076980823,230.00829740889586,0.04498120310647643,0.10343305841801874,0.361328125,,
19.25875000000003,1312.17248375,,,,-0.05029296875,1.00693359375,0.0076171875,0.026449641813011692,1.3440931640808762,16.36353931427002,0.8301080768369141,341.49112144632,1202.49694804296,13.58335143561404,31.820207350640516,235.3943624536996,0.04254284190481761,0.09973819824998839,0.3693359375,,
19.74639975000003,1317.44830625,,,,-0.046484375,0.98544921875,0.01640625,0.027735308412199684,1.4593077157421062,16.361264610290526,0.8523161565326157,354.16221181583995,1240.19605988616,13.944901661062284,34.39480341739819,247.66684121269276,0.0424506504183342,0.10507556435261796,0.3142578125,,
20.23420000000003,1322.739839791667,,,,-0.05107421875,0.987109375,0.01640625,0.02900777028584931,1.5441784573977044,16.3596791267395,0.9168172394298019,363.16811075616,1267.31847646224,14.998634721906267,36.78765292687102,247.29453149344604,0.04222738732365522,0.10391915926579827,0.27109375,,
20.716450000000023,1327.9647672916667,,,,-0.02587890625,0.986328125,0.01416015625,0.031111395380087364,1.6155641427596126,16.356079292297363,0.9807602887414397,371.12681214528,1309.31109826536,16.04119339461283,40.75600518493497,254.60538713606175,0.03986880308224918,0.10134947304332724,0.2587890625,,
21.19700000000003,1333.1690952083334,,,,-0.0458984375,1.003515625,0.00263671875,0.03239600308794156,1.722324173001649,16.35417957305908,1.035526255276054,383.69318275968,1352.87451639528,16.9351762120062,43.8301862676528,259.33295972167485,0.03933215228442852,0.1019564271304401,0.2529296875,,
21.679899750000036,1338.3988841666664,,,,-0.05283203125,1.00625,0.01376953125,0.033152328091457815,1.7862014484506696,16.353286743164062,1.0710530762933195,390.18580757712,1366.2786450506399,17.515220418463294,45.2893680581506,259.16630827463166,0.03947417405995443,0.10224613141480042,0.25244140625,,
22.16365000000003,1343.6395091666668,,,,-0.0541015625,0.98740234375,0.0234375,0.03497666944455648,1.872981203198193,16.35029363632202,1.1454941724799572,398.77282749695996,1404.8155149348,18.729114861776694,49.13947951340202,263.5032682524884,0.03814702770454879,0.10042736202235349,0.315234375,,
22.651449750000037,1348.924548125,,,,-0.0490234375,0.991015625,0.009375,0.03749239389075491,1.9602153445366055,16.346993732452393,1.217990854885429,407.88344619239996,1438.4305563283199,19.910327418567242,53.955222281022614,271.9463935869787,0.03645868131941659,0.0990981700102215,0.43310546875,,
23.132199750000023,1354.1337727083337,,,,-0.07080078125,0.94130859375,0.0533203125,0.03860339888175717,2.0647195830115566,16.344307518005373,1.2912068878673015,419.08845999024,1469.2181643335998,21.10380726276181,56.708064703667546,269.64933741625134,0.036458910702911074,0.09815731541863465,0.55078125,,
23.613650000000014,1359.345136875,,,,0.02802734375,0.90322265625,0.01083984375,0.039091322765163666,2.1136878628478484,16.34286117553711,1.2870477770827708,425.05748603207996,1489.3243573166399,21.03406940582557,58.22324937724407,277.57399408265775,0.036352703050686073,0.10076668189712663,0.60869140625,,
24.10159950000003,1364.6361368750004,,,,-0.0458984375,0.998828125,0.02880859375,0.04188863037247952,2.2051333129686514,16.338417720794677,1.414477554466575,434.16810472751996,1517.3892516888,23.110194202017723,63.584749674321586,275.46999233443137,0.034784196821015564,0.09563232544272864,0.6234375,,
24.58864975000003,1369.90927,,,,-0.0494140625,0.98603515625,0.0173828125,0.04423817728438633,2.359065084560439,16.33396158218384,1.497667024042457,447.57223338288,1567.02641561568,24.46269558539245,69.32274673637157,284.04933963951845,0.03409381760729527,0.09665346694061881,0.5498046875,,
25.076600000000035,1375.1959285416665,,,,-0.09189453125,1.03154296875,0.00849609375,0.04470956404706834,2.4456770196263222,16.331383323669435,1.570242193844169,454.90261624128,1590.1694814972,25.64408202702426,71.10471079415277,277.7519538914227,0.03442721140089882,0.09553129332955096,0.41826171875,,
25.57114975000003,1380.5465200000003,,,,-0.05185546875,1.01142578125,0.00673828125,0.04735168890283929,2.531702788960295,16.32733335494995,1.6334746037982402,462.8613176304,1628.392192116,26.669887126546165,77.15039528055311,290.6119267895442,0.03294628762229456,0.0954328301197441,0.32392578125,,
26.064349500000013,1385.8965508333335,,,,-0.05009765625,0.98603515625,0.02900390625,0.04953765977036531,2.6899556402233835,16.32334098815918,1.7431111728213726,474.48521044871995,1665.35826567336,28.453344813458852,82.52319931727932,290.2196551817609,0.03265836194182962,0.0946140713932362,0.33310546875,,
26.549649750000015,1391.154511875,,,,-0.05087890625,0.9947265625,0.0130859375,0.05043137058384588,2.766997500452241,16.319751262664795,1.7907883559726177,480.55895624567995,1695.9364341684,29.225222712993702,85.53467028618506,292.92224401538806,0.03238294920034754,0.09474350568296455,0.33359375,,
27.037149500000027,1396.434142291667,,,,-0.057421875,0.98984375,0.02783203125,0.05239967312515984,2.850234656613284,16.31606492996216,1.8746201550029216,486.84214155288,1702.42905898584,30.58624877639715,89.20918744867606,292.08370448018604,0.031982509490307676,0.09332146855478919,0.32138671875,,
27.520149500000038,1401.6709756250002,,,,-0.04853515625,0.98876953125,0.01884765625,0.054333388157968975,2.9701363711566104,16.31161403656006,1.9644726132415236,496.99995779951996,1743.79336225824,32.04368352726648,94.7551104637782,295.97878267136105,0.03137439227866612,0.09277546372941206,0.30322265625,,
28.006100000000032,1406.9289393749998,,,,-0.0490234375,0.9908203125,0.0208984375,0.05558326431123558,3.055617071249103,16.307964324951172,2.038857022430748,499.5132319224,1758.2446884648,33.249545169907336,97.74973403389455,294.1351872953276,0.031296277806496894,0.09195190285908614,0.28642578125,,
28.49084975000004,1412.1868814583336,,,,-0.04775390625,1.00927734375,0.00380859375,0.05679270944547195,3.107829621595959,16.30459318161011,2.1037286793254317,508.41441110759996,1784.9482260204,34.3001952512851,101.35926276991208,295.9370269391955,0.030687768982421725,0.09073891884631637,0.2998046875,,
28.971149500000024,1417.3901395833332,,,,-0.04609375,1.021484375,-0.00009765625,0.059648906308253834,3.25974225772377,16.297848320007326,2.2386817728541795,518.4675075991199,1816.25943280128,36.48566230268503,108.34086308522326,297.01214445884364,0.030107468018493143,0.08936438167122264,0.40224609375,,
29.45614975000002,1422.6416033333333,,,,-0.0455078125,0.99501953125,0.01220703125,0.0606451865699472,3.3319280674208844,16.294058895111085,2.309138146545738,524.8554126614399,1829.0352429259199,37.624928341059274,110.9651699597139,295.35515762308194,0.03009422642441216,0.08869724047320848,0.41494140625,,
29.939450000000033,1427.8800589583336,,,,-0.04755859375,0.9990234375,0.0162109375,0.061681990320809635,3.4273564569119657,16.28955821990967,2.3743934427760545,531.1385979686399,1854.16798415472,38.67751379988256,114.37939067317241,296.39196383619657,0.029985644539135752,0.08880113543962599,0.40048828125,,
30.42039975000002,1433.0881839583335,,,,-0.08203125,1.02265625,0.03076171875,0.06413471253924984,3.5081408014863467,16.28492193222046,2.459328225757927,537.7359425412,1891.5529367325598,40.04952664587896,121.36183912087401,303.89546824965635,0.028986666162593013,0.08780832326562432,0.4330078125,,
30.901049750000034,1438.2984783333336,,,,-0.0458984375,0.98837890625,0.0111328125,0.06578442268248612,3.6336857130575404,16.279939556121825,2.553832427170128,546.1135229508,1913.753524818,41.576056377577956,125.91107587916596,303.1496675349882,0.028894240843788915,0.08748756963531251,0.5291015625,,
31.380050000000047,1443.4865562500001,,,,-0.04814453125,1.0220703125,0.01826171875,0.06684865621423895,3.7132982669113965,16.276350593566896,2.649544290211052,551.9778292375199,1928.5190102899198,43.12481539641378,128.92496697339843,299.1229030955871,0.028833935967877953,0.08616585833530441,0.6205078125,,
31.863750000000028,1448.7250118750003,,,,-0.01474609375,1.02353515625,0.076953125,0.06938757486181649,3.818419844969221,16.270069217681886,2.7597476398013536,559.41293185104,1968.9408357662398,44.90104117200628,136.64785193851588,304.6684081687532,0.027981834882348233,0.08513639666446822,0.725,,
32.347049500000026,1453.9585925000001,,,,-0.00771484375,1.05810546875,0.01328125,0.07100336905588832,3.949103440073935,16.264969444274904,2.8616525804065174,567.79051226064,1995.85381283208,46.544625888472176,141.70472890361341,304.5265913228109,0.027893833152041466,0.08487467268145073,0.8330078125,,
32.83075000000003,1459.1997700000002,,,,-0.04072265625,0.976171875,0.0150390625,0.07238777752679895,4.025567786463606,16.260033512115477,2.9541261707805107,573.23593952688,1989.98950654536,48.03378860050052,144.02623318000357,300.36175551818167,0.027968819357921358,0.08392108313248822,0.92158203125,,
33.31575000000004,1464.4533922916667,,,,-0.04892578125,0.98837890625,0.02529296875,0.07431654680473498,4.1198534096305295,16.255517768859864,3.0504449879191826,580.2521631199199,2050.3080854944797,49.58590602284493,152.38278533138163,308.3770728560295,0.02708358219673016,0.08329318305849039,0.9990234375,,
33.79959950000003,1469.6972672916668,,,,-0.1052734375,1.00947265625,0.0353515625,0.07664262053030356,4.231417944049704,16.24887228012085,3.1855027114413685,588.21086450904,2081.09569349976,51.76078687277675,159.50371929663353,308.33549429628886,0.02654397451889563,0.08178380199876938,0.9771484375,,
34.28459975000003,1474.949267291667,,,,-0.08837890625,1.0150390625,0.0134765625,0.07786274965734347,4.349032314454673,16.243933963775635,3.26970942368731,593.44685226504,2080.2579354587997,53.11275200872616,161.9698250169443,305.1646387917707,0.02686627683530961,0.08193212719289888,0.8755859375,,
34.76989975000002,1480.2056006250002,,,,-0.05087890625,0.99306640625,0.0126953125,0.08064786794538156,4.45777903556298,16.236008071899413,3.396030393745751,598.4734005107999,2108.21811007584,55.1374985400948,170.05902158716336,308.5438201499534,0.026238636173250167,0.08091402061957143,0.76435546875,,
35.25389975000004,1485.454895,,,,-0.04208984375,0.98720703125,0.02275390625,0.08244378105024866,4.595199210638293,16.229410934448243,3.5031427418254326,607.1651401857599,2135.2358068967997,56.853767679696126,176.0409625154601,309.79168519875475,0.026114504810836377,0.08086525242868027,0.68056640625,,
35.734449500000025,1490.6575897916669,,,,-0.0505859375,0.99462890625,0.01689453125,0.0838055120762543,4.692148535276976,16.223086071014404,3.5983575974963613,613.5530452480799,2151.57208869552,58.37613444126845,180.3142523794359,309.20345995460457,0.026040677035299456,0.0804558146759748,0.62412109375,,
36.22099975000001,1495.930170416667,,,,-0.0494140625,0.9912109375,0.01708984375,0.08567830684586172,4.760656749823982,16.217561054229737,3.7500604664348076,620.25510957576,2178.4850657613597,60.81592311513481,186.66638546135798,307.69126246182884,0.025540632111170844,0.07843871969272533,0.58232421875,,
36.70425000000006,1501.1659285416667,,,,-0.06259765625,0.996484375,0.02587890625,0.0881988866710333,4.898455080204154,16.209750175476074,3.89078138222918,630.20348631216,2209.90099229736,63.06754845047328,194.93714593954078,309.8026362598756,0.025164160842738485,0.07780984674811244,0.54658203125,,
37.18780000000003,1506.4016731250001,,,,-0.0603515625,1.0169921875,0.02119140625,0.08829178582922761,5.003092328011123,16.20665760040283,3.9229382072947927,633.86867774136,2208.33019597056,63.57748420110746,194.97181092417674,306.8010209255637,0.02567892651920766,0.07874980274400878,0.50595703125,,
37.67110000000001,1511.6401368749998,,,,-0.0421875,0.9962890625,-0.00078125,0.09176770332444864,5.1153014284380784,16.197821807861327,4.112461057808251,641.40850011,2252.9408116516797,66.612665432917,206.73545166778968,310.47699404736386,0.024753962689634344,0.07683122910407438,0.48486328125,,
38.15544975000003,1516.886189375,,,,-0.07099609375,1.0091796875,0.02587890625,0.09395239980858036,5.237447592657874,16.18902940750122,4.288067916538568,649.6813607644799,2274.09420218592,69.41901431543354,213.66424310287863,308.1535878409387,0.024535921118039858,0.07551951883488539,0.50166015625,,
38.639049750000034,1522.1230118750002,,,,-0.0572265625,1.02724609375,-0.0033203125,0.09582745732175703,5.39410416971377,16.1811110496521,4.411106136944146,659.00141897016,2308.33756211016,71.3763160636739,221.23129459258854,310.1855153154679,0.02440936328140758,0.07562270909166746,0.50400390625,,
39.12680000000004,1527.4075172916669,,,,-0.0544921875,1.00810546875,0.01123046875,0.09722028895537438,5.453160008961224,16.17524700164795,4.509791186954827,664.23740672616,2338.28741207448,72.94680877097144,227.31874569744946,311.7362338646309,0.024005679589975546,0.07477488359168896,0.48974609375,,
39.60824975000003,1532.6253922916667,,,,-0.05576171875,1.00439453125,0.00439453125,0.09942821668625092,5.575593118610574,16.168132305145264,4.648031500484795,669.78755374752,2356.8228087307198,75.14943769987114,234.33901290541286,312.2803452605734,0.023809732137065106,0.07428336617216033,0.46806640625,,
40.091200000000015,1537.85950375,,,,-0.0365234375,0.99482421875,0.02509765625,0.1012990510821266,5.726428235852075,16.16063985824585,4.80559375634417,676.28017856496,2380.0705943673597,77.66113502103197,241.11094248095392,310.65655647272195,0.023766753326830238,0.07377426801884104,0.45595703125,,
40.57460000000002,1543.090939375,,,,-0.0525390625,0.9916015625,0.01513671875,0.10323140852472908,5.847455960436703,16.153468132019043,4.880924204494805,682.45864411704,2398.082392248,78.84327456831906,247.55270532316953,314.29941127238993,0.023646748308504932,0.07423497405684851,0.4560546875,,
41.061399500000036,1548.3635200000003,,,,-0.04970703125,0.99208984375,0.017578125,0.10535373084090316,5.912953309557192,16.146329402923584,5.022473434116693,686.6474343218399,2409.28740604584,81.09390172703795,253.809370971304,313.3699044824464,0.023309710634499128,0.07301757784096208,0.44794921875,,
41.54644975000002,1553.6230925000002,,,,-0.030078125,0.987109375,0.00390625,0.10803975025696302,6.066960244467002,16.137972164154053,5.234682539608331,695.2344542416799,2430.4407965800797,84.47561549018222,262.6085085871042,311.4811180254521,0.023128594290848258,0.07195373209095188,0.44951171875,,
42.03410000000004,1558.9027229166668,,,,-0.07763671875,0.97626953125,0.00263671875,0.10881225780444725,6.168409634807667,16.13127565383911,5.312346843387933,701.83179881424,2464.16055772872,85.69365112726426,268.1621090318825,313.4985960337032,0.023025906020425174,0.07209230705185535,0.427734375,,
42.52399975000006,1564.206173125,,,,0.0107421875,1.04326171875,0.015234375,0.11014735151134183,6.242257324392257,16.124125289916993,5.4079583918117,704.97339146784,2468.66350719888,87.19793492172877,271.95406546303605,312.0484826231129,0.022983656461969235,0.07164593504148511,0.394921875,,
43.02130000000001,1569.5919675,,,,-0.0642578125,0.99423828125,0.02587890625,0.11143813512129448,6.33514242242482,16.11628665924072,5.522839668896051,710.8376977545599,2481.54403707864,89.00741854924561,276.5311213228009,310.9132055941403,0.022917577139490993,0.07121120920731729,0.37265625,,
43.512249750000024,1574.9122175,,,,-0.04296875,0.9779296875,0.01630859375,0.11446761773682959,6.411157411136245,16.104297351837157,5.711250833179803,717.43504232712,2513.0646833697597,91.9745689276995,287.7275941292995,312.8435180147729,0.02230890898597313,0.06975144644152954,0.35068359375,,
44.00564975000003,1580.2617310416667,,,,-0.0419921875,0.99130859375,0.02568359375,0.11719721186079812,6.620772223542967,16.094186210632323,5.946855286266656,728.43061661472,2554.2195471319196,95.70906391132606,299.36594763797376,312.87016303403163,0.022131364524846993,0.0692132073130931,0.328125,,
44.490049750000026,1585.5077591666666,,,,-0.04287109375,0.9734375,0.01787109375,0.12035234887958277,6.8205226176388996,16.083507919311522,6.148079470302911,736.80819702432,2595.6885701594397,98.88229080249138,312.3977799315218,316.02912567995634,0.021837629017667715,0.06899701651181463,0.2916015625,,
44.979449750000015,1590.8079675000001,,,,-0.0974609375,0.9931640625,0.03505859375,0.12207819406043104,6.940153598912586,16.07542200088501,6.288072303440424,740.3686686983999,2601.3434369359197,101.08305939065119,317.57316538803195,314.2195936634015,0.02186148066598492,0.06867446336215936,0.29599609375,,
45.474100000000035,1596.1634339583336,,,,-0.06416015625,1.0259765625,0.00966796875,0.12414680233754379,7.066005111932114,16.06757574081421,6.437211683895439,744.76689841344,2597.049926976,103.43010060716605,322.4145935907653,311.86943168581655,0.021925929257589412,0.06833754101939206,0.2876953125,,
45.962450000000025,1601.4587645833337,,,,-0.04970703125,0.98974609375,0.02060546875,0.12677724745775593,7.154644653543656,16.056918716430665,6.614061072971673,750.3170454348,2615.8994828975997,106.20077049287497,331.6236589350731,312.40313341136056,0.02158587330454003,0.06739655236134057,0.2890625,,
46.44954975000005,1606.7356866666669,,,,-0.04365234375,1.0015625,0.0091796875,0.12924388794949754,7.354518156299835,16.046383476257326,6.833273247387261,759.4276641302399,2649.4098045359997,109.64802113350545,342.40853847912865,312.5689649195337,0.02150152808556107,0.06714977196907392,0.2826171875,,
46.93719975000003,1612.0196422916667,,,,-0.05146484375,0.99619140625,0.014453125,0.1301328942164106,7.414882411820619,16.037633419036865,6.960688451435418,763.09285555944,2685.0145212767998,111.6319290357751,349.4222040970001,313.28808860921436,0.021237173486144262,0.06647329394232253,0.280859375,,
47.42324950000004,1617.2873452083336,,,,-0.05068359375,1.0080078125,0.00888671875,0.13283257464463258,7.519839243403594,16.028054618835448,7.10009272446856,769.1666013564,2693.81098070688,113.79961638095237,357.8932803725305,314.598363789736,0.021037761413038807,0.06611680775461992,0.27294921875,,
47.911299750000005,1622.5718560416667,,,,-0.05205078125,0.999609375,0.01474609375,0.1343214312802009,7.650870356216908,16.01871500015259,7.26128657212481,775.6592261738399,2714.8596514859996,116.31612219285819,364.6570425914636,313.487920367569,0.020996555489891083,0.06578336218978796,0.27314453125,,
48.396750000000026,1627.8319756250003,,,,-0.053125,1.01669921875,0.0162109375,0.13673361407107582,7.772083373250898,16.00882954597473,7.445822051670403,780.4763349093599,2720.93339728296,119.19874281446036,372.0834795154472,312.294872171865,0.020908358493342532,0.06522473729312812,0.27294921875,,
48.88609975000006,1633.1300172916667,,,,-0.04375,0.98857421875,0,0.1396322549455458,7.872124127307781,15.997365140914917,7.655804756786675,787.28311899216,2774.65463165952,122.4718707964212,387.4400408527988,316.469589853108,0.020329048317166573,0.06430302247804283,0.27607421875,,
49.37144950000003,1638.3923062500003,,,,-0.044921875,1.0111328125,0.01123046875,0.14062666891889952,8.0083135706434,15.989143371582031,7.766186860706658,794.50878209544,2775.91126872096,124.17447552731679,390.3813546260735,314.4129228222484,0.020531509081090155,0.06450304041248006,0.29521484375,,
49.85640000000003,1643.6453868750002,,,,-0.048828125,1.0005859375,0.008203125,0.14145186449231426,8.055725402016183,15.980936670303345,7.8949666773341605,800.1636488719199,2794.4466653771997,126.16801108987177,395.2711617155184,313.52970339599176,0.020395106156259564,0.06389336955714377,0.31220703125,,
50.342050000000036,1648.9033424999998,,,,-0.05361328125,1.00126953125,0.00322265625,0.14330805919433748,8.136536783755322,15.971364974975586,8.084162572529168,805.50435638304,2825.1295536273597,129.1144369526596,404.83530052897896,313.61561094719616,0.020107711738180267,0.0630405919160701,0.32421875,,
50.82719975000003,1654.1618479166668,,,,-0.049609375,0.98525390625,0.00263671875,0.14573871169601565,8.303548054169461,15.961675882339478,8.248826721813531,812.1017009556,2860.4201111027996,131.66465174079912,416.87916809751835,316.67116346739283,0.019929083758075006,0.0630787515772105,0.32587890625,,
51.31224975000002,1659.417089791667,,,,-0.05234375,0.988671875,0.0296875,0.14716139089719907,8.407215032763414,15.952836656570435,8.391675141956657,817.02352944624,2896.2342673538396,133.87062711486902,426.2118160750664,318.4646773920572,0.019730882592963777,0.06281247926035266,0.32958984375,,
51.797100000000036,1664.6669312500003,,,,-0.04873046875,1.004296875,0.003125,0.14934728526917035,8.524994329873396,15.942497062683106,8.587615398075432,821.0028801407999,2889.2180437608,136.90751903351105,431.5545705301535,315.2486210530392,0.019773421264679163,0.062282066710360025,0.33759765625,,
52.287249750000015,1669.9752645833335,,,,-0.05107421875,0.9890625,0.0130859375,0.15216653489431525,8.679862851353189,15.92736520767212,8.879533485081048,829.3804605503999,2914.1413454793596,141.4262725716,443.41179424536404,313.69661394985707,0.0195852867371955,0.061405048699478555,0.37939453125,,
52.77195000000004,1675.2315979166665,,,,-0.05771484375,1.00927734375,0.01435546875,0.15314211029879327,8.773404952489324,15.919768524169921,8.927249864246697,834.93060757176,2914.1413454793596,142.11921000699797,446.23188598172635,314.0387486134121,0.019667215027232697,0.06174450574330877,0.4423828125,,
53.25495000000003,1680.4624810416667,,,,-0.02958984375,0.9955078125,0.00859375,0.15443041960261258,8.850392555887812,15.911115550994873,9.077723363544793,838.8052385112,2932.46730262536,144.43659784071764,452.8715875106344,313.57212912769484,0.019559717384118207,0.06128011078196802,0.4814453125,,
53.73789975000004,1685.6965952083333,,,,-0.0611328125,0.877734375,0.1060546875,0.15767847369947668,8.99995079570867,15.898375988006592,9.352922109272331,846.6592201451999,2974.98352320408,148.69056659119883,469.05963347078693,316.11997748001113,0.019214241966384136,0.060667713937940786,0.49697265625,,
54.21970000000003,1690.9133922916667,,,,-0.03486328125,1.0267578125,-0.0220703125,0.15892262120713377,9.127939866973804,15.889275884628296,9.487927535679193,851.5810486358399,3011.8448770063196,150.7559203196404,478.6769939086195,317.582234675372,0.019080060798147988,0.06055732795803093,0.49404296875,,
54.70395000000004,1696.1615979166666,,,,-0.0572265625,0.989453125,0.02275390625,0.16091306093591518,9.218634954661134,15.878668975830077,9.673064664509148,855.24624006504,3014.56759063944,153.59412490363826,485.1449667576706,315.89825608746565,0.019015611261156324,0.06004118655344408,0.47353515625,,
55.18634950000003,1701.3870562500001,,,,-0.04638671875,0.99833984375,0.008984375,0.16393071421678734,9.417483385561162,15.867143821716308,9.889076760914177,861.1105463517599,3024.8301266412,156.91031001987199,495.8032826295748,316.125344825835,0.01900280157809908,0.060036844636336587,0.44931640625,,
55.67090000000006,1706.6358089583337,,,,-0.05029296875,0.9927734375,0.00947265625,0.16705541956688266,9.556664944049544,15.855186891555785,10.138714936878532,866.13709459752,3027.7622797845597,160.75092055312268,505.7889860091035,314.6489337421327,0.01889906709310794,0.05945413976302334,0.4546875,,
56.15724975000002,1711.9013560416668,,,,-0.05166015625,0.98447265625,0.02509765625,0.1682279425092583,9.61824460799689,15.84562578201294,10.295954564716668,871.4778021086399,3070.80209913888,163.14456392658383,516.5866430278256,316.7580502749768,0.01862686911927117,0.058973538751734556,0.47001953125,,
56.644799750000026,1717.1842256250002,,,,-0.0365234375,0.98681640625,0.01728515625,0.17030400012866478,9.695839107873361,15.833815050125121,10.48419142117724,877.5515479055999,3084.3109475493598,166.0029912164127,525.242269518465,316.5837904375242,0.018471178211797577,0.05843835852774164,0.4486328125,,
57.12955000000003,1722.4340562500001,,,,-0.04765625,1.00048828125,0.0125,0.1717619499002779,9.842840895895762,15.823029232025146,10.663259795811028,883.52057394744,3137.29914364008,168.7249104038393,538.8769884563274,319.4263255088068,0.01827344456365566,0.058341225026051796,0.423046875,,
57.61489975000003,1727.6947147916667,,,,-0.05166015625,1.01171875,0.003515625,0.17422304263278124,9.992921493739706,15.811875343322754,10.856632236149164,887.29048513176,3121.9053396374397,171.66257738746202,543.901602862348,316.9759717012283,0.018380948372685533,0.05823291308096818,0.40390625,,
58.101299750000024,1732.9651422916668,,,,-0.04619140625,0.98935546875,0.012890625,0.17680452951281536,10.131070050033545,15.800300931930542,11.081258968021722,890.8509568058399,3128.39796445488,175.08640517199476,553.1608411791174,315.9977661976519,0.01832557197325781,0.05787521485725272,0.368359375,,
58.58530000000003,1738.207928541667,,,,-0.0537109375,0.98955078125,0.01572265625,0.17821860398752495,10.205540135150814,15.79036831855774,11.267106679584831,897.7624606437599,3125.6752508217596,177.9110008671908,557.0521096850101,313.12422998058406,0.018326518864506664,0.057375015140980964,0.339453125,,
59.06974975000003,1743.4566812499997,,,,-0.0474609375,1.00380859375,0.01015625,0.17924233314301458,10.289873377971064,15.78150053024292,11.347847417499871,902.7890088895199,3152.90238715296,179.08590156887809,565.1213958441523,315.5813866822714,0.01821003152765754,0.057463118340028575,0.36318359375,,
59.555850000000035,1748.72112875,,,,-0.05244140625,1.00908203125,-0.001171875,0.18057400512854102,10.349474103959135,15.771621799468994,11.560140899326653,907.50139786992,3167.3537133595196,182.32204149145517,571.9481983607893,313.76999362067374,0.01810432336299981,0.056772895347428895,0.3837890625,,
60.04165000000005,1753.9855979166666,,,,-0.05302734375,0.99296875,0.0181640625,0.18379577008636214,10.514581957974455,15.757814931869508,11.893083337452264,914.8317807283199,3204.31978691688,187.40896197715944,588.9459550120583,314.34792276765864,0.01785942441278074,0.056116481260496585,0.425,,
60.52540000000003,1759.2278425000004,,,,-0.04912109375,1.00146484375,0.01298828125,0.18552952628565206,10.669259414570215,15.745832633972167,12.054451421406121,918.3922524023999,3191.02037801664,189.8069143408929,592.0440306795077,311.94058680178574,0.01802514783869595,0.05621542057819351,0.42373046875,,
61.012400000000014,1764.4977229166666,,,,-0.04912109375,0.99560546875,0.0091796875,0.18825432307707374,10.79195298674624,15.734089899063111,12.251276782657952,922.26688334184,3243.694414842,192.76189803873484,610.6322615955087,316.8836468323246,0.017678260440753775,0.05599746856948601,0.42509765625,,
61.500699750000024,1769.7892672916666,,,,-0.04609375,1.0126953125,0.01298828125,0.18999936238630516,10.879450118586234,15.722439670562744,12.486414769794793,927.18871183248,3240.44810243328,196.31552522883678,615.6878587719409,313.66729755252425,0.017674814836747047,0.055430853366259594,0.4541015625,,
61.989999500000025,1775.095428541667,,,,-0.0546875,0.99892578125,0.00546875,0.1931183651266581,11.08219244871371,15.707511377334594,12.798404697086664,933.26245762944,3274.16786358192,201.03063078008995,632.3037460210961,314.54072244209283,0.01753240537189525,0.055130526969908895,0.44462890625,,
62.47334975000005,1780.326311666667,,,,-0.05751953125,1.00400390625,0.01943359375,0.19657326296111455,11.292192446088126,15.69224019050598,13.106863263752311,937.7654070996,3272.8065067653597,205.6733491046084,643.3198067054976,312.9839557326774,0.01755983244589308,0.05493507911522748,0.3994140625,,
62.959999750000044,1785.60160875,,,,-0.051953125,0.99609375,0.015625,0.1989404518338968,11.45324418464675,15.679943466186524,13.362631133701651,940.69756024296,3290.2947058704,209.52387798078735,654.5377506996101,312.4505204321495,0.017503481776262545,0.05467319547688084,0.3384765625,,
63.443649750000006,1790.8389756250003,,,,-0.04921875,0.9927734375,0.0072265625,0.20136427593578038,11.593716855623015,15.668157958984375,13.578329375889151,946.0382677540799,3293.436298524,212.74719187382908,663.1913319517078,311.7383836477368,0.017486932491512616,0.0544984612896339,0.29443359375,,
63.92675000000005,1796.0741758333338,,,,-0.04326171875,0.9880859375,0.013671875,0.20341271150432055,11.689242403165647,15.654261255264283,13.811274388935416,951.2742555100799,3325.7947028560798,216.20165776187528,676.4499616759714,313.1520258146535,0.01729151750243103,0.05409948052805996,0.273828125,,
64.41184975000002,1801.3283560416664,,,,-0.05166015625,0.99658203125,0.0125,0.20467164485920736,11.741702613941667,15.643244123458862,14.00103264203295,955.14888644952,3365.3787702914397,219.01963172929044,688.7300251709922,314.5148699505225,0.01705328969090936,0.053624959553714505,0.2666015625,,
64.89795000000001,1806.5955037500003,,,,-0.03681640625,1.01171875,0.0021484375,0.2065806993640849,11.879123329760274,15.629883289337158,14.225515607502311,961.6415112669599,3354.48791575896,222.3428854456415,692.9782619129567,311.6659288547341,0.017150164878499467,0.05342842249993324,0.282421875,,
65.38739925000002,1811.8913922916668,,,,-0.04189453125,0.995703125,0.0044921875,0.2083314468750038,11.996889649031173,15.618329429626465,14.398790029194206,965.0972631859199,3387.47463862176,224.8844725091426,705.729375875085,313.84737384323375,0.017007390943975593,0.05335183327633037,0.31162109375,,
65.87529975000004,1817.1818479166668,,,,-0.04248046875,1.0052734375,0.00732421875,0.2102726187147435,12.04608971848092,15.605950689315796,14.678335431721061,970.8568497175199,3401.61180556296,229.06819029466192,715.3426655805832,312.3019622775539,0.0168507887222005,0.05259735740023426,0.34267578125,,
66.36589975000004,1822.4928895833332,,,,-0.04521484375,0.9955078125,0.006640625,0.21176257714432745,12.173636461730643,15.593232679367066,14.876106742527336,977.8730733105599,3452.50560655128,231.96609181073018,731.1195297878537,315.1918662511679,0.01665575187486852,0.052483528416152114,0.37373046875,,
66.85480000000004,1827.7947202083335,,,,-0.0044921875,0.97333984375,-0.00166015625,0.21667555694568383,12.389460629395222,15.571650552749634,15.339459518101066,983.3185005767999,3452.4008867961597,238.85248913800575,748.0925419820084,313.3980001079839,0.01657017845913099,0.05190989676336131,0.400390625,,
67.34194975000003,1833.071636875,,,,-0.05146484375,0.988671875,0.0154296875,0.2218689013329728,12.705047068319695,15.547779321670532,15.915631297733634,988.97336735328,3488.00560353696,247.45100181637054,773.8994307850426,312.7903157831547,0.016427181412097414,0.051356326791970906,0.44990234375,,
67.82734975000004,1838.3301395833337,,,,-0.04921875,0.99580078125,0.01376953125,0.223975330915987,12.858973080995385,15.532579278945922,16.238272145893426,1002.48221576376,3528.42742901328,252.22154457351422,790.2659419562028,313.3516524820334,0.016277779226387283,0.050986879540388476,0.53017578125,,
68.31549975000001,1843.6135562500003,,,,-0.06689453125,1.0123046875,0.005078125,0.22538858137875942,12.962638788842597,15.522543573379517,16.403768876697868,1005.6238084173599,3548.8477812616798,254.62768289583855,799.8729377229165,314.1290319361701,0.016212769677746687,0.05091132232656032,0.53818359375,,
68.80630000000005,1848.9321785416669,,,,-0.049609375,1.00263671875,0.01845703125,0.22776184799657476,13.093731726621716,15.507482957839965,16.68389830937609,1008.87012082608,3527.7991104825596,258.7243834161715,803.5259818184234,310.60078125270456,0.016304657708682748,0.050612992699005786,0.49033203125,,
69.30125000000002,1854.2925145833335,,,,-0.04853515625,0.99404296875,0.00517578125,0.2302026536499484,13.214865065131177,15.494618368148803,16.903302339222282,1014.2108283371999,3556.2828838752,261.90802196327866,818.7087217769578,312.69537299516475,0.016151654092618418,0.05046745670543648,0.4384765625,,
69.79129975000005,1859.60193125,,,,-0.05576171875,1.00341796875,0.0146484375,0.23226294779122703,13.37126984507169,15.47949686050415,17.211795762684197,1019.86569511368,3595.76223155544,266.4297561368363,835.1848208377867,313.5086773804827,0.0160213029972588,0.05018847335805425,0.410546875,,
70.28015000000002,1864.8983425000001,,,,-0.036328125,0.9994140625,-0.00927734375,0.23340036630127367,13.457533892938663,15.467243957519532,17.404370454456657,1024.1592050735999,3606.1294873123197,269.1973127043111,841.7114823663787,312.6928027229853,0.015997955100819094,0.049992697974358576,0.42783203125,,
70.77109975000003,1870.2202256249998,,,,-0.062109375,0.99677734375,0.02548828125,0.23654437723312935,13.65371810190151,15.450579500198364,17.767599443104118,1029.3951928295999,3615.7637047833596,274.51771353167237,855.2532357250633,311.6240602388471,0.015976357761433385,0.04974746688115465,0.4607421875,,
71.25779975000003,1875.4927981250003,,,,-0.0462890625,0.98115234375,0.0185546875,0.23849103434009522,13.748783287639844,15.438151025772095,17.981954911854118,1033.37454352416,3624.14128519296,277.60753403976616,864.3216187241782,311.35125311291193,0.015914394474142054,0.04952838625725661,0.473828125,,
71.74775000000004,1880.7989674999997,,,,-0.0435546875,0.998046875,-0.0037109375,0.23962162618715896,13.812505559023322,15.428186750411987,18.131185773517934,1037.66805348408,3653.9864154021598,279.73109733361724,875.5741900698735,313.0141603506107,0.015781858799547202,0.04937875640913301,0.4611328125,,
72.24050000000003,1886.133303541667,,,,-0.056640625,0.99560546875,0.0359375,0.2423123387326807,13.90355753728543,15.41257209777832,18.456516317036,1043.0087609952,3678.59555785536,284.460515297996,891.3861167984435,313.389231906944,0.01560816677882373,0.048882358758163554,0.4763671875,,
72.72759975000004,1891.4172727083337,,,,-0.0544921875,0.9966796875,0.020703125,0.24471284916955777,14.078179769578373,15.399979257583619,18.69739585271105,1047.61643022048,3718.5985043111996,287.9393418419783,909.9740401866235,316.0396892011721,0.01547946483052014,0.048893180829629575,0.47451171875,,
73.21144950000003,1896.6589729166662,,,,-0.0509765625,0.99697265625,0.0078125,0.24642290086977475,14.179286869413232,15.389847326278687,18.812447217609733,1048.5589080165598,3701.2150249612796,289.51706839438475,912.002817874728,315.1037861456421,0.015557794364455313,0.04899087680806945,0.48076171875,,
73.69224975000004,1899.9463695833335,,,,-0.0427734375,1,0.00859375,0.2454542103535134,14.250509250300011,15.385308456420898,18.77108712544665,1046.7786721795198,3729.3846390885597,288.7988599909076,915.4328169109685,316.9691212581459,0.015572294969161564,0.049344950289487155,0.44375,,
74.18069975000004,1900,,,,-0.053125,0.997265625,0.0119140625,0.24584001025957739,14.200548355034035,15.381408214569092,18.784170201923697,1046.1503536487999,3660.2696007093596,288.9270169259372,899.8266369993578,311.4364864047276,0.01578746538994448,0.04914962521541933,0.3931640625,,
74.66489975000003,1900,,,,-0.05556640625,0.99169921875,0.01708984375,0.2455423223677844,14.1545716563665,15.376714706420898,18.772011331226675,1046.25507340392,3669.69437867016,288.65185116531364,901.0681113774472,312.16653454058087,0.015712882722180705,0.04903718497963386,0.38779296875,,
75.14964975000002,1900,,,,-0.0513671875,0.9916015625,0.00556640625,0.24508591463411977,14.161854765585474,15.373057985305786,18.718505147602407,1045.94091413856,3673.6737293647197,287.7606466027363,900.3552501343116,312.8835073730021,0.015734237141274608,0.04921421730007725,0.3923828125,,
75.63684950000003,1900,,,,-0.05146484375,0.99921875,0.0078125,0.24549878104528142,14.174977145351129,15.367051124572754,18.83438935628161,1046.1503536487999,3651.26370176904,289.4256602490594,896.3727915468138,309.8028040917292,0.01582039003295795,0.04899204732817146,0.38310546875,,
76.12529975000002,1900,,,,-0.04677734375,0.99443359375,0.00810546875,0.2441090902686299,14.12850674805515,15.366579389572143,18.6986775909923,1045.73147462832,3636.393496542,287.33469382315394,887.6778208916394,308.9345466831375,0.015919815199506793,0.04917110448519374,0.40166015625,,
76.61370000000005,1900,,,,-0.05,0.9982421875,0.00908203125,0.24458728064834584,14.115171477654203,15.36352186203003,18.694993642475456,1045.20787585272,3690.3241704288,287.220930779362,902.6070066216714,314.25404112123766,0.01564248972008334,0.04914423490885005,0.38037109375,,
77.10094950000003,1900,,,,-0.0435546875,0.9970703125,0.0123046875,0.24481377250268332,14.154960261535539,15.358622074127197,18.763788846638054,1046.04563389368,3723.62505255696,288.1788498256704,911.6300814774861,316.48880206444534,0.015533933525870142,0.04914684544609529,0.36884765625,,
77.58785000000003,1900,,,,-0.04990234375,0.9904296875,0.0193359375,0.24370417463011584,14.073926282818965,15.358943796157837,18.646784452106804,1045.41731536296,3668.8566206292,286.3949280182947,894.1110923589371,312.19640769295603,0.015744209333373182,0.04914180593278311,0.35908203125,,
78.08705000000003,1900,,,,-0.03896484375,1.00029296875,0.00498046875,0.24331219220369987,14.078327933241237,15.355833292007446,18.640035871174184,1045.31259560784,3676.60588250808,286.2333173106356,894.5650632281204,312.5293550869727,0.01574496441638284,0.049185360607222374,0.382421875,,
78.58299975000003,1900,,,,-0.05048828125,0.99931640625,0.00341796875,0.24300003164228778,14.00937848568399,15.35416932106018,18.60185418477282,1045.5220351180799,3574.81828053144,285.6160131642699,868.6903260263598,304.1443029303656,0.016133192266297076,0.049049992835778884,0.3625,,
79.07010000000004,1900,,,,-0.04384765625,0.993359375,0.007421875,0.24207599390709675,13.959934892491296,15.35341944694519,18.55551972737536,1046.25507340392,3592.4111993916,284.8906913067884,869.6427935244117,305.2534330077294,0.01605889306453619,0.049001399293062894,0.4142578125,,
79.56125000000003,1900,,,,-0.05546875,0.99111328125,0.0169921875,0.24154532077075244,13.9787030107783,15.351819324493409,18.517799905445425,1046.1503536487999,3639.5350891956,284.2819178885331,879.1060781324043,309.2394924791859,0.01590446615948719,0.049172125384943845,0.41748046875,,
80.05549975000005,1900,,,,-0.05029296875,0.9919921875,0.01005859375,0.24206573745022375,13.997305661617002,15.34791522026062,18.555493501331657,1045.31259560784,3698.1781520627997,284.7881240528665,895.1885699273847,314.33546895348337,0.015639047623126505,0.04915015648779866,0.39833984375,,
80.54190000000003,1900,,,,-0.0435546875,0.99267578125,0.01064453125,0.24293433304345843,14.050224611967442,15.344204521179199,18.626058725025505,1044.16067830152,3665.9244674858396,285.80200166159466,890.5889041519318,311.60537087698685,0.015780173032506888,0.04916100771780859,0.396875,,
81.02624975000003,1900,,,,-0.051953125,1.00244140625,0.0068359375,0.2438321949653773,14.024195203453415,15.34119791984558,18.640567639973014,1043.3229202605598,3692.73272479656,285.9686241082933,900.4118130876852,314.86459070744604,0.015579309934675246,0.04904128992561407,0.38955078125,,
81.51735000000005,1900,,,,-0.05146484375,0.9923828125,0.016015625,0.2427823748023211,13.942908156874722,15.340365839004516,18.569845346119255,1044.3701178117599,3656.2902500147998,284.8682134091007,887.69683893901,311.61732300289776,0.015712726230483077,0.04894540069876932,0.37890625,,
82.00619975000004,1900,,,,-0.04853515625,0.99423828125,0.01162109375,0.24317901026813754,14.00061663281302,15.338411569595337,18.58487763753161,1043.95123879128,3678.07195907976,285.0624564505187,894.43746797688,313.7643601916746,0.01565826576941889,0.04911428633832141,0.37333984375,,
82.49114975000002,1900,,,,-0.04951171875,0.99150390625,0.01552734375,0.24346605268322938,14.026712714975332,15.335500574111938,18.62195639958605,1043.11348075032,3648.3315486256797,285.5770289924917,888.2462666473223,311.03176082967946,0.015797358692763025,0.049117310994174074,0.33759765625,,
82.97569975000005,1900,,,,-0.04619140625,0.99296875,0.00830078125,0.24280698458578392,14.009712475780228,15.33431830406189,18.579724553730337,1037.03973495336,3656.08081050456,284.9074078989212,887.7367146501044,311.58976469378797,0.01578603573577391,0.04917294743942621,0.3779296875,,
